    
{
  "resourceType": "Bundle",
  "type": "transaction",
  "entry": [

    {
      "fullUrl": "http://fhirtest.uhn.ca/baseDstu3/Composition/id1580475506025",
      "resource": {
        "resourceType": "Composition",
        "id": "id1580481297992",
        "status": "final",
        "subject": {
          "reference": "Patient/id1580475290493",
          "display": "DR Patient"
        },
        "encounter": {
          "reference": "Encounter/id1580481304682",
          "display": "Encounter 1"
        },
        "date": "2020-01-31T09:00:00-05:00",
        "author": [
          {
            "reference": "Practitioner/id1580475301709",
            "display": "Nurse"
          }
        ],
        "type": {
          "coding": [
            {
              "system": "http://loinc.org",
              "code": "34131-3"
            }
          ],
          "text": "Biannual Doworming Campaign Home Visit"
        },
        "title": "Biannual Deworming Campaign",
        "section": [
          {
            "entry": [
              {
                "reference": "MedicationAdministration/id1580480488769",
                "display": "GiveAlbendazole"
              }
            ]
          }
        ]
      },
      "request": {
        "method": "PUT",
        "url": "Composition/id1580475506025"
      }
    },
    {
      "fullUrl": "http://fhirtest.uhn.ca/baseDstu3/Patient/id1580475290493",
      "resource": {
        "resourceType": "Patient",
        "id": "id1580475290493",
        "name": [
          {
            "given": [
              "This",
              "is"
            ],
            "family": "aTest",
            "suffix": [
              "Pt"
            ]
          }
        ]
      },
      "request": {
        "method": "PUT",
        "url": "Patient/id1580475290493"
      }
    },
    {
      "fullUrl": "http://fhirtest.uhn.ca/baseDstu3/Practitioner/id1580475301709",
      "resource": {
        "resourceType": "Practitioner",
        "id": "id1580475301709",
        "name": [
          {
            "given": [
              "Nurse",
              "at"
            ],
            "family": "theClinic"
          }
        ]
      },
      "request": {
        "method": "PUT",
        "url": "Practitioner/id1580475301709"
      }
    },
    {
      "fullUrl": "http://fhirtest.uhn.ca/baseDstu3/Encounter/id1580475317445",
      "resource": {
        "resourceType": "Encounter",
        "id": "id1580481304682",
        "status": "finished",
        "class": {
          "system": "http://hl7.org/fhir/v3/ActCode",
          "code": "HH",
          "display": "home health"
        },
        "subject": {
          "reference": "Patient/id1580475290493",
          "display": "DR Patient"
        },
        "participant": [
          {
            "individual": {
              "reference": "Practitioner/id1580475301709",
              "display": "Nurse"
            }
          }
        ],
        "location": [
          {
            "location": {
              "reference": "Location/id1580480245857",
              "display": "Dominican Republic"
            }
          }
        ],
        "serviceProvider": {
          "reference": "Organization/id1580476595411",
          "display": "DR Clinic"
        }
      },
      "request": {
        "method": "PUT",
        "url": "Encounter/id1580475317445"
      }
    },

    {
      "fullUrl": "http://fhirtest.uhn.ca/baseDstu3/Organization/id1580476595411",
      "resource": {
        "resourceType": "Organization",
        "id": "id1580476595411",
        "name": "DR Clinic"
      },
      "request": {
        "method": "PUT",
        "url": "Organization/id1580476595411"
      }
    },
    {
      "fullUrl": "http://fhirtest.uhn.ca/baseDstu3/Location/id1580480245857",
      "resource": {
        "resourceType": "Location",
        "id": "id1580480245857",
        "position": {
          "latitude": 18.7357,
          "longitude": 70.1627
        }
      },
      "request": {
        "method": "PUT",
        "url": "Location/id1580480245857"
      }
    },
    {
      "fullUrl": "http://fhirtest.uhn.ca/baseDstu3/MedicationAdministration/id1580480488769",
      "resource": {
        "resourceType": "MedicationAdministration",
        "id": "id1580480488769",
        "status": "completed",
        "medicationCodeableConcept": {
          "coding": [
            {
              "system": "http://snomed.info/sct",
              "code": "387558006",
              "display": "Albendazole"
            }
          ]
        },
        "subject": {
          "reference": "Patient/id1580475290493",
          "display": "DR Patient"
        },
        "context": {
          "reference": "Encounter/id1580481304682",
          "display": "Encounter 1"
        },
        "effectiveDateTime": "2020-01-31T08:59:22-05:00",
        "performer": [
          {
            "actor": {
              "reference": "Practitioner/id1580475301709",
              "display": "Nurse"
            }
          }
        ]
      },
      "request": {
        "method": "PUT",
        "url": "MedicationAdministration/id1580480488769"
      }
    }
  ]
}